70BCSV 	
// AQ6370C OPTICAL SPECTRUM ANALYZER //                 
25
"CTRWL",1550.000000
"SPAN", 200.000000
"START WL",1450.000000
"STOP WL",1650.000000
"WLFREQ", 0
"REFL", -4.7
"LSCL",10.0
"RESLN",1.000
"AVG",   1
"SMPLAUTO",      1
"SMPL",       1001
"SMPLINTVL",0.2000
"HIGH2"
"MEAS"
"LSUNT",0
"NMSKH","OFF"
"RESCOR",0
"SMOOTH",0
"FIBERTYPE",0
"MEASWL",1
"SWPSPD",0
"RESPARM", 9926
"FREQPARM", 9926


"[TRACE DATA]"
1450.0000, -99.528
1450.2000, -92.784
1450.4000,-210.000
1450.6000,-105.274
1450.8000, -97.820
1451.0000, -93.079
1451.2000, -91.767
1451.4000, -93.418
1451.6000, -94.573
1451.8000, -93.471
1452.0000, -91.862
1452.2000, -92.651
1452.4000, -92.973
1452.6000,-101.895
1452.8000, -95.260
1453.0000, -94.635
1453.2000, -93.064
1453.4000, -92.502
1453.6000, -94.264
1453.8000, -97.089
1454.0000, -93.583
1454.2000,-210.000
1454.4000, -91.377
1454.6000, -94.573
1454.8000, -95.498
1455.0000, -93.450
1455.2000, -91.423
1455.4000, -94.261
1455.6000,-107.154
1455.8000,-105.897
1456.0000,-109.694
1456.2000, -93.826
1456.4000, -98.945
1456.6000, -93.538
1456.8000,-101.250
1457.0000, -96.803
1457.2000, -91.541
1457.4000,-210.000
1457.6000,-210.000
1457.8000, -95.576
1458.0000, -94.325
1458.2000,-100.412
1458.4000, -94.627
1458.6000, -94.237
1458.8000, -91.646
1459.0000, -95.957
1459.2000,-210.000
1459.4000, -99.953
1459.6000,-102.069
1459.8000,-105.847
1460.0000, -92.410
1460.2000, -94.866
1460.4000,-102.368
1460.6000, -96.957
1460.8000,-210.000
1461.0000,-210.000
1461.2000, -97.076
1461.4000, -95.352
1461.6000, -98.802
1461.8000, -97.820
1462.0000,-105.191
1462.2000,-100.221
1462.4000, -98.373
1462.6000, -96.741
1462.8000, -98.124
1463.0000, -92.591
1463.2000, -95.059
1463.4000, -91.372
1463.6000, -93.480
1463.8000,-100.275
1464.0000, -92.173
1464.2000, -94.659
1464.4000, -93.703
1464.6000,-100.422
1464.8000, -93.797
1465.0000, -96.815
1465.2000, -95.104
1465.4000, -97.783
1465.6000,-210.000
1465.8000, -95.215
1466.0000, -95.711
1466.2000, -97.298
1466.4000,-210.000
1466.6000, -96.246
1466.8000,-210.000
1467.0000,-105.393
1467.2000,-210.000
1467.4000, -98.868
1467.6000, -93.838
1467.8000, -95.648
1468.0000, -93.977
1468.2000, -98.733
1468.4000,-100.712
1468.6000, -93.261
1468.8000,-104.283
1469.0000, -98.189
1469.2000,-210.000
1469.4000, -94.927
1469.6000, -97.484
1469.8000, -94.337
1470.0000, -92.317
1470.2000, -94.231
1470.4000,-210.000
1470.6000, -94.272
1470.8000, -94.750
1471.0000, -91.052
1471.2000,-210.000
1471.4000,-210.000
1471.6000, -93.862
1471.8000, -91.718
1472.0000, -93.414
1472.2000,-210.000
1472.4000, -95.050
1472.6000,-210.000
1472.8000,-109.637
1473.0000,-210.000
1473.2000, -94.630
1473.4000, -93.323
1473.6000, -95.130
1473.8000, -96.162
1474.0000,-210.000
1474.2000,-210.000
1474.4000, -95.327
1474.6000, -95.832
1474.8000,-210.000
1475.0000, -96.798
1475.2000, -93.353
1475.4000, -93.497
1475.6000, -92.526
1475.8000, -93.097
1476.0000, -93.951
1476.2000,-102.116
1476.4000, -96.059
1476.6000,-210.000
1476.8000, -91.667
1477.0000, -93.942
1477.2000, -99.764
1477.4000, -97.279
1477.6000,-103.389
1477.8000, -93.414
1478.0000, -99.508
1478.2000,-102.183
1478.4000, -99.283
1478.6000,-108.102
1478.8000, -92.403
1479.0000,-100.137
1479.2000, -93.240
1479.4000, -95.846
1479.6000, -94.137
1479.8000,-210.000
1480.0000, -94.729
1480.2000,-102.239
1480.4000, -94.320
1480.6000, -95.609
1480.8000,-210.000
1481.0000, -97.618
1481.2000, -99.097
1481.4000, -95.739
1481.6000, -96.907
1481.8000, -93.684
1482.0000,-210.000
1482.2000, -91.972
1482.4000,-101.802
1482.6000,-210.000
1482.8000, -94.302
1483.0000, -94.192
1483.2000, -94.144
1483.4000, -96.673
1483.6000, -95.531
1483.8000,-210.000
1484.0000, -97.714
1484.2000, -98.670
1484.4000,-210.000
1484.6000,-100.672
1484.8000,-210.000
1485.0000, -91.620
1485.2000, -93.286
1485.4000, -98.760
1485.6000, -97.331
1485.8000,-210.000
1486.0000, -99.519
1486.2000, -95.316
1486.4000, -92.410
1486.6000, -96.522
1486.8000, -96.908
1487.0000, -94.099
1487.2000,-100.359
1487.4000,-101.866
1487.6000,-210.000
1487.8000, -94.336
1488.0000, -93.053
1488.2000, -93.270
1488.4000,-210.000
1488.6000, -93.133
1488.8000, -97.787
1489.0000, -98.233
1489.2000, -95.835
1489.4000,-100.123
1489.6000,-210.000
1489.8000, -97.929
1490.0000, -95.291
1490.2000, -94.908
1490.4000,-100.666
1490.6000, -93.565
1490.8000, -94.724
1491.0000,-100.427
1491.2000, -96.012
1491.4000, -96.787
1491.6000, -92.860
1491.8000, -95.107
1492.0000,-101.606
1492.2000, -91.829
1492.4000, -92.546
1492.6000,-210.000
1492.8000, -93.814
1493.0000, -92.941
1493.2000, -95.152
1493.4000,-210.000
1493.6000, -96.543
1493.8000, -93.324
1494.0000, -93.810
1494.2000,-210.000
1494.4000, -92.319
1494.6000, -95.829
1494.8000, -96.592
1495.0000, -91.604
1495.2000, -91.491
1495.4000,-101.432
1495.6000, -95.028
1495.8000, -96.493
1496.0000, -94.817
1496.2000, -98.141
1496.4000, -97.603
1496.6000,-107.271
1496.8000, -93.591
1497.0000, -96.476
1497.2000, -95.002
1497.4000,-210.000
1497.6000,-210.000
1497.8000,-103.743
1498.0000,-100.033
1498.2000, -93.858
1498.4000, -94.734
1498.6000,-107.188
1498.8000, -96.522
1499.0000, -98.523
1499.2000, -93.181
1499.4000, -98.319
1499.6000,-210.000
1499.8000,-210.000
1500.0000,-109.973
1500.2000,-210.000
1500.4000, -95.322
1500.6000,-210.000
1500.8000,-111.346
1501.0000, -92.933
1501.2000, -98.289
1501.4000, -94.747
1501.6000, -94.332
1501.8000, -92.079
1502.0000, -95.955
1502.2000,-210.000
1502.4000, -95.485
1502.6000, -91.924
1502.8000, -99.159
1503.0000,-109.213
1503.2000, -92.898
1503.4000, -95.108
1503.6000, -93.179
1503.8000, -93.218
1504.0000, -92.559
1504.2000, -96.725
1504.4000, -91.872
1504.6000, -95.983
1504.8000,-210.000
1505.0000, -97.242
1505.2000, -96.895
1505.4000, -91.871
1505.6000,-103.876
1505.8000, -99.327
1506.0000, -94.141
1506.2000, -95.003
1506.4000, -98.090
1506.6000,-102.702
1506.8000, -94.757
1507.0000, -95.027
1507.2000, -94.134
1507.4000, -92.608
1507.6000, -94.091
1507.8000, -98.020
1508.0000, -93.670
1508.2000, -93.052
1508.4000, -92.757
1508.6000, -99.380
1508.8000, -94.523
1509.0000, -91.708
1509.2000,-100.317
1509.4000,-101.271
1509.6000, -94.144
1509.8000, -96.026
1510.0000,-210.000
1510.2000, -93.515
1510.4000, -97.991
1510.6000, -92.458
1510.8000,-101.697
1511.0000, -94.250
1511.2000, -95.280
1511.4000,-210.000
1511.6000,-102.312
1511.8000, -97.921
1512.0000,-210.000
1512.2000, -97.733
1512.4000, -94.782
1512.6000, -97.784
1512.8000, -95.595
1513.0000, -94.531
1513.2000, -92.263
1513.4000, -95.241
1513.6000, -94.308
1513.8000, -95.594
1514.0000, -97.914
1514.2000, -98.529
1514.4000, -94.400
1514.6000, -99.543
1514.8000, -95.526
1515.0000, -95.353
1515.2000, -93.634
1515.4000,-210.000
1515.6000, -94.630
1515.8000,-100.356
1516.0000, -93.939
1516.2000, -94.707
1516.4000, -93.666
1516.6000, -97.053
1516.8000, -97.599
1517.0000, -95.229
1517.2000, -94.490
1517.4000, -99.107
1517.6000,-210.000
1517.8000, -98.395
1518.0000, -95.202
1518.2000, -95.735
1518.4000, -97.881
1518.6000, -91.188
1518.8000, -95.132
1519.0000, -96.667
1519.2000, -93.152
1519.4000, -98.415
1519.6000,-106.941
1519.8000, -99.110
1520.0000, -94.078
1520.2000, -92.450
1520.4000, -94.222
1520.6000, -95.975
1520.8000, -93.923
1521.0000, -92.761
1521.2000, -95.135
1521.4000, -94.919
1521.6000, -99.481
1521.8000, -95.840
1522.0000, -94.705
1522.2000, -93.292
1522.4000,-102.667
1522.6000, -97.651
1522.8000, -95.182
1523.0000, -92.959
1523.2000, -90.870
1523.4000, -90.517
1523.6000, -94.088
1523.8000, -93.201
1524.0000, -92.153
1524.2000, -99.126
1524.4000, -92.364
1524.6000, -90.636
1524.8000, -95.917
1525.0000, -90.641
1525.2000, -96.713
1525.4000, -91.726
1525.6000, -90.557
1525.8000, -91.121
1526.0000, -90.316
1526.2000, -93.192
1526.4000, -89.834
1526.6000, -90.794
1526.8000, -88.344
1527.0000, -90.175
1527.2000, -92.579
1527.4000, -89.172
1527.6000, -90.471
1527.8000, -89.607
1528.0000, -90.976
1528.2000, -90.631
1528.4000, -89.554
1528.6000, -89.474
1528.8000, -89.005
1529.0000, -89.632
1529.2000, -89.877
1529.4000, -89.077
1529.6000, -91.069
1529.8000, -89.316
1530.0000, -90.327
1530.2000, -90.494
1530.4000, -90.719
1530.6000, -88.661
1530.8000, -89.724
1531.0000, -89.121
1531.2000, -92.288
1531.4000, -92.456
1531.6000, -90.950
1531.8000, -90.298
1532.0000, -90.292
1532.2000, -90.560
1532.4000, -90.340
1532.6000, -89.518
1532.8000, -87.853
1533.0000, -86.353
1533.2000, -85.641
1533.4000, -85.337
1533.6000, -85.797
1533.8000, -85.647
1534.0000, -86.174
1534.2000, -86.306
1534.4000, -87.358
1534.6000, -87.936
1534.8000, -85.520
1535.0000, -86.125
1535.2000, -85.884
1535.4000, -85.621
1535.6000, -86.057
1535.8000, -84.073
1536.0000, -84.113
1536.2000, -86.043
1536.4000, -86.577
1536.6000, -87.400
1536.8000, -90.152
1537.0000, -89.324
1537.2000, -91.187
1537.4000, -92.192
1537.6000, -90.659
1537.8000, -91.728
1538.0000, -89.334
1538.2000, -90.803
1538.4000, -91.504
1538.6000, -91.602
1538.8000, -90.809
1539.0000, -90.851
1539.2000, -96.424
1539.4000, -92.611
1539.6000, -93.227
1539.8000, -93.510
1540.0000, -94.379
1540.2000, -95.134
1540.4000,-100.286
1540.6000, -92.088
1540.8000,-210.000
1541.0000, -93.210
1541.2000, -92.474
1541.4000,-210.000
1541.6000, -97.439
1541.8000, -96.814
1542.0000, -93.073
1542.2000,-100.207
1542.4000, -94.987
1542.6000,-100.327
1542.8000, -94.726
1543.0000,-100.611
1543.2000, -99.633
1543.4000, -98.195
1543.6000, -93.418
1543.8000, -95.411
1544.0000,-100.298
1544.2000, -95.361
1544.4000, -94.877
1544.6000, -99.815
1544.8000, -93.241
1545.0000, -94.299
1545.2000, -91.031
1545.4000, -90.421
1545.6000, -89.712
1545.8000, -87.928
1546.0000, -89.195
1546.2000, -88.015
1546.4000, -90.519
1546.6000, -93.941
1546.8000, -90.243
1547.0000, -92.758
1547.2000, -90.120
1547.4000, -90.217
1547.6000, -74.422
1547.8000, -69.327
1548.0000, -69.205
1548.2000, -69.309
1548.4000, -74.498
1548.6000, -82.679
1548.8000, -80.696
1549.0000, -77.767
1549.2000, -73.765
1549.4000, -62.415
1549.6000,  -8.946
1549.8000,  -4.483
1550.0000,  -4.429
1550.2000,  -4.420
1550.4000, -11.539
1550.6000, -53.352
1550.8000, -60.609
1551.0000, -73.856
1551.2000, -75.748
1551.4000, -70.804
1551.6000, -15.287
1551.8000, -10.346
1552.0000, -10.399
1552.2000, -10.337
1552.4000, -17.624
1552.6000, -72.440
1552.8000, -78.452
1553.0000, -81.011
1553.2000, -82.896
1553.4000, -85.115
1553.6000, -79.636
1553.8000, -75.071
1554.0000, -75.123
1554.2000, -75.190
1554.4000, -81.679
1554.6000, -92.850
1554.8000, -91.490
1555.0000, -95.084
1555.2000, -90.586
1555.4000, -90.155
1555.6000, -93.207
1555.8000, -92.098
1556.0000, -96.022
1556.2000, -92.309
1556.4000, -94.681
1556.6000,-104.162
1556.8000, -93.181
1557.0000, -93.005
1557.2000, -98.999
1557.4000, -92.825
1557.6000, -93.082
1557.8000, -96.298
1558.0000,-103.816
1558.2000, -96.337
1558.4000, -93.408
1558.6000, -95.347
1558.8000,-210.000
1559.0000, -95.841
1559.2000, -95.120
1559.4000, -93.749
1559.6000, -97.391
1559.8000, -93.722
1560.0000, -94.125
1560.2000, -98.401
1560.4000,-100.399
1560.6000, -95.673
1560.8000,-103.041
1561.0000, -95.283
1561.2000, -92.295
1561.4000, -95.477
1561.6000, -94.160
1561.8000,-102.528
1562.0000,-210.000
1562.2000, -90.789
1562.4000, -93.556
1562.6000,-210.000
1562.8000, -94.056
1563.0000, -97.910
1563.2000,-100.021
1563.4000, -91.933
1563.6000, -93.949
1563.8000, -95.768
1564.0000,-103.672
1564.2000, -93.087
1564.4000, -96.035
1564.6000, -92.914
1564.8000, -97.214
1565.0000, -91.476
1565.2000, -93.030
1565.4000, -91.720
1565.6000, -93.546
1565.8000, -96.631
1566.0000, -92.588
1566.2000, -91.914
1566.4000, -96.607
1566.6000, -90.197
1566.8000, -90.873
1567.0000, -93.149
1567.2000, -93.475
1567.4000, -91.775
1567.6000, -91.446
1567.8000, -94.163
1568.0000, -93.367
1568.2000, -92.266
1568.4000, -93.511
1568.6000, -93.778
1568.8000, -91.090
1569.0000, -94.520
1569.2000, -90.949
1569.4000, -90.373
1569.6000, -92.431
1569.8000, -95.030
1570.0000, -90.797
1570.2000,-108.627
1570.4000, -91.823
1570.6000, -91.127
1570.8000, -91.699
1571.0000, -91.159
1571.2000, -96.416
1571.4000, -93.067
1571.6000, -94.129
1571.8000, -94.942
1572.0000, -98.411
1572.2000, -92.210
1572.4000, -95.681
1572.6000, -92.768
1572.8000, -91.446
1573.0000, -96.017
1573.2000, -91.559
1573.4000,-210.000
1573.6000, -91.512
1573.8000, -92.165
1574.0000, -90.077
1574.2000, -95.515
1574.4000, -95.447
1574.6000, -93.892
1574.8000, -91.973
1575.0000, -91.187
1575.2000, -93.916
1575.4000, -92.553
1575.6000, -93.201
1575.8000, -90.635
1576.0000, -95.228
1576.2000, -92.151
1576.4000, -91.050
1576.6000, -96.078
1576.8000, -92.967
1577.0000, -92.024
1577.2000, -94.278
1577.4000, -94.826
1577.6000, -93.817
1577.8000, -93.075
1578.0000, -92.772
1578.2000, -90.376
1578.4000, -94.691
1578.6000, -91.589
1578.8000, -92.829
1579.0000,-111.335
1579.2000, -96.794
1579.4000, -93.086
1579.6000, -93.957
1579.8000, -96.382
1580.0000,-102.517
1580.2000, -94.586
1580.4000, -97.642
1580.6000, -93.980
1580.8000, -93.070
1581.0000,-108.303
1581.2000, -96.449
1581.4000, -94.472
1581.6000, -98.072
1581.8000, -92.738
1582.0000, -92.460
1582.2000, -93.922
1582.4000, -91.869
1582.6000, -93.999
1582.8000, -91.334
1583.0000, -91.186
1583.2000, -91.081
1583.4000, -92.257
1583.6000, -92.818
1583.8000, -93.279
1584.0000, -92.569
1584.2000, -89.316
1584.4000, -88.668
1584.6000, -91.282
1584.8000, -91.550
1585.0000, -95.307
1585.2000, -92.387
1585.4000, -91.143
1585.6000, -89.829
1585.8000, -90.414
1586.0000, -89.744
1586.2000, -91.954
1586.4000, -92.694
1586.6000, -90.961
1586.8000, -90.900
1587.0000, -92.939
1587.2000, -92.536
1587.4000, -97.706
1587.6000, -90.173
1587.8000, -91.488
1588.0000, -91.512
1588.2000, -93.029
1588.4000, -92.633
1588.6000, -92.951
1588.8000, -97.930
1589.0000, -93.058
1589.2000, -93.598
1589.4000, -93.322
1589.6000, -95.558
1589.8000, -92.332
1590.0000, -91.891
1590.2000, -94.523
1590.4000, -93.898
1590.6000, -94.990
1590.8000, -93.164
1591.0000, -95.062
1591.2000, -95.702
1591.4000, -95.286
1591.6000, -94.452
1591.8000, -93.317
1592.0000,-105.955
1592.2000, -93.145
1592.4000, -91.764
1592.6000, -97.815
1592.8000, -97.539
1593.0000, -96.880
1593.2000, -91.474
1593.4000, -94.343
1593.6000, -92.576
1593.8000, -94.785
1594.0000, -94.112
1594.2000, -91.493
1594.4000,-210.000
1594.6000, -92.887
1594.8000, -97.472
1595.0000, -92.845
1595.2000, -93.243
1595.4000, -96.320
1595.6000,-100.303
1595.8000, -94.444
1596.0000,-105.783
1596.2000, -97.501
1596.4000, -91.058
1596.6000, -96.608
1596.8000, -93.774
1597.0000, -97.349
1597.2000, -99.188
1597.4000,-210.000
1597.6000, -95.950
1597.8000,-210.000
1598.0000, -95.519
1598.2000, -92.398
1598.4000, -93.267
1598.6000, -94.619
1598.8000,-210.000
1599.0000, -94.452
1599.2000, -92.235
1599.4000, -93.178
1599.6000, -95.329
1599.8000,-210.000
1600.0000, -95.875
1600.2000, -94.287
1600.4000, -92.057
1600.6000, -96.658
1600.8000,-210.000
1601.0000,-210.000
1601.2000,-210.000
1601.4000,-100.116
1601.6000, -95.237
1601.8000, -92.281
1602.0000, -94.801
1602.2000, -94.779
1602.4000,-210.000
1602.6000, -94.668
1602.8000, -95.867
1603.0000, -98.020
1603.2000, -95.274
1603.4000,-109.008
1603.6000, -93.717
1603.8000, -95.729
1604.0000, -99.441
1604.2000, -96.515
1604.4000,-210.000
1604.6000, -91.726
1604.8000, -94.877
1605.0000,-101.162
1605.2000,-108.205
1605.4000,-210.000
1605.6000, -98.568
1605.8000,-101.092
1606.0000, -93.494
1606.2000,-210.000
1606.4000, -93.476
1606.6000,-100.078
1606.8000, -94.676
1607.0000, -92.518
1607.2000, -95.249
1607.4000, -95.600
1607.6000, -93.240
1607.8000, -96.691
1608.0000, -92.489
1608.2000,-100.093
1608.4000, -93.956
1608.6000,-101.080
1608.8000, -91.757
1609.0000, -94.082
1609.2000, -92.497
1609.4000, -97.180
1609.6000,-110.020
1609.8000, -95.419
1610.0000, -95.952
1610.2000, -99.723
1610.4000, -95.118
1610.6000, -93.368
1610.8000, -99.708
1611.0000, -93.189
1611.2000, -92.651
1611.4000, -95.397
1611.6000, -95.407
1611.8000, -95.828
1612.0000,-106.074
1612.2000, -92.671
1612.4000,-210.000
1612.6000, -98.568
1612.8000,-210.000
1613.0000,-210.000
1613.2000, -96.862
1613.4000,-103.130
1613.6000, -93.789
1613.8000, -94.025
1614.0000, -96.236
1614.2000, -92.835
1614.4000, -94.126
1614.6000, -93.476
1614.8000,-101.657
1615.0000, -96.812
1615.2000, -94.295
1615.4000, -94.533
1615.6000, -93.877
1615.8000,-210.000
1616.0000, -94.138
1616.2000, -91.478
1616.4000, -96.154
1616.6000, -93.455
1616.8000, -98.223
1617.0000,-102.961
1617.2000, -94.514
1617.4000, -92.807
1617.6000, -94.082
1617.8000, -91.127
1618.0000, -95.991
1618.2000, -92.919
1618.4000,-210.000
1618.6000, -98.444
1618.8000, -93.566
1619.0000,-107.339
1619.2000, -94.113
1619.4000, -96.078
1619.6000, -96.745
1619.8000, -99.750
1620.0000, -95.226
1620.2000, -91.167
1620.4000, -96.877
1620.6000,-210.000
1620.8000, -91.940
1621.0000, -92.099
1621.2000,-210.000
1621.4000, -93.586
1621.6000, -96.704
1621.8000,-210.000
1622.0000, -92.138
1622.2000, -92.084
1622.4000, -98.415
1622.6000, -94.420
1622.8000,-210.000
1623.0000, -96.729
1623.2000, -93.413
1623.4000, -96.297
1623.6000, -93.485
1623.8000,-210.000
1624.0000, -92.641
1624.2000, -92.073
1624.4000, -99.549
1624.6000, -93.626
1624.8000, -97.029
1625.0000, -94.450
1625.2000, -94.785
1625.4000,-210.000
1625.6000, -94.660
1625.8000, -94.121
1626.0000, -94.658
1626.2000, -94.192
1626.4000, -93.912
1626.6000, -93.915
1626.8000,-100.929
1627.0000, -97.540
1627.2000, -95.685
1627.4000, -93.796
1627.6000, -91.989
1627.8000, -95.049
1628.0000, -91.833
1628.2000,-210.000
1628.4000,-210.000
1628.6000, -96.829
1628.8000, -95.267
1629.0000,-210.000
1629.2000, -93.790
1629.4000,-210.000
1629.6000, -92.152
1629.8000, -92.470
1630.0000, -92.795
1630.2000, -91.832
1630.4000,-210.000
1630.6000, -90.604
1630.8000, -92.511
1631.0000, -96.522
1631.2000, -90.067
1631.4000, -92.334
1631.6000, -96.635
1631.8000, -94.380
1632.0000, -94.675
1632.2000,-108.487
1632.4000, -92.395
1632.6000,-210.000
1632.8000, -94.518
1633.0000, -92.854
1633.2000, -93.486
1633.4000, -91.880
1633.6000,-210.000
1633.8000,-104.207
1634.0000,-104.239
1634.2000, -91.810
1634.4000,-210.000
1634.6000,-210.000
1634.8000, -92.673
1635.0000, -93.588
1635.2000,-210.000
1635.4000, -95.329
1635.6000, -97.362
1635.8000, -91.662
1636.0000, -95.582
1636.2000, -99.087
1636.4000, -92.864
1636.6000, -92.777
1636.8000, -93.204
1637.0000, -93.478
1637.2000, -96.189
1637.4000, -89.889
1637.6000, -96.437
1637.8000, -98.996
1638.0000, -96.431
1638.2000, -91.151
1638.4000,-210.000
1638.6000, -94.520
1638.8000, -95.564
1639.0000, -95.065
1639.2000, -95.526
1639.4000, -96.291
1639.6000, -92.407
1639.8000, -93.657
1640.0000, -97.495
1640.2000, -92.851
1640.4000, -99.958
1640.6000,-102.950
1640.8000, -90.822
1641.0000, -94.959
1641.2000, -93.450
1641.4000, -91.765
1641.6000, -95.164
1641.8000, -90.308
1642.0000, -93.634
1642.2000, -93.544
1642.4000, -93.117
1642.6000, -91.755
1642.8000, -95.814
1643.0000, -97.344
1643.2000,-210.000
1643.4000, -93.644
1643.6000, -90.137
1643.8000, -91.933
1644.0000, -91.618
1644.2000, -90.397
1644.4000, -94.087
1644.6000,-210.000
1644.8000, -96.773
1645.0000, -92.446
1645.2000, -90.964
1645.4000, -91.202
1645.6000, -90.947
1645.8000,-210.000
1646.0000, -93.130
1646.2000,-210.000
1646.4000,-210.000
1646.6000, -96.286
1646.8000, -89.138
1647.0000,-210.000
1647.2000, -90.787
1647.4000, -91.190
1647.6000, -92.348
1647.8000,-210.000
1648.0000, -91.211
1648.2000, -94.403
1648.4000, -89.857
1648.6000, -94.018
1648.8000,-109.683
1649.0000, -93.525
1649.2000, -95.646
1649.4000, -90.214
1649.6000, -89.688
1649.8000, -96.940
1650.0000,-210.000
